onset	duration	trial_phase	trial	condition	n_grips	rewarded_response	phase
0.095554	14.489849	trialstart	1	None	10	1	Reminder
14.582541	5.060144	ITI	1	None	10	1	Reminder
19.648188	16.709043	trialstart	2	None	13	2	Reminder
36.357186	3.321390	ITI	2	None	13	2	Reminder
39.682568	16.684239	trialstart	3	None	13	2	Reminder
56.366766	3.846177	ITI	3	None	13	2	Reminder
60.224011	14.138933	trialstart	1	None	14	1	Partial_Extinction
74.361171	5.399416	ITI	1	None	14	1	Partial_Extinction
79.764281	14.239287	trialstart	2	None	12	1	Partial_Extinction
94.003539	5.790966	ITI	2	None	12	1	Partial_Extinction
99.798649	12.648367	trialstart	3	None	13	1	Partial_Extinction
112.446975	7.881914	ITI	3	None	13	1	Partial_Extinction
120.333686	11.872927	trialstart	4	None	13	1	Partial_Extinction
132.206570	8.157365	ITI	4	None	13	1	Partial_Extinction
140.368281	11.747930	trialstart	5	None	11	1	Partial_Extinction
152.116168	8.782298	ITI	5	None	11	1	Partial_Extinction
160.903041	11.772592	trialstart	6	None	12	1	Partial_Extinction
172.675590	7.757700	ITI	6	None	12	1	Partial_Extinction
180.458789	9.199237	trialstart	1	Baseline	13	0	PIT
189.703370	10.800763	ITI	1	Baseline	13	0	PIT
200.504355	9.196835	trialstart	2	Baseline	14	0	PIT
209.745793	10.303165	ITI	2	Baseline	14	0	PIT
220.049036	9.196499	trialstart	3	Baseline	13	0	PIT
229.288871	11.303501	ITI	3	Baseline	13	0	PIT
240.596494	9.189777	trialstart	4	CSminus	13	0	PIT
249.831603	10.810223	ITI	4	CSminus	13	0	PIT
260.641899	9.188040	trialstart	5	CSminus	13	0	PIT
269.874492	10.311960	ITI	5	CSminus	13	0	PIT
280.186529	9.188158	trialstart	6	CSminus	14	0	PIT
289.417563	11.311842	ITI	6	CSminus	14	0	PIT
300.733911	9.198427	trialstart	7	CSplus	13	0	PIT
309.976993	10.801573	ITI	7	CSplus	13	0	PIT
320.778644	9.197099	trialstart	8	CSplus	17	0	PIT
330.019871	10.302901	ITI	8	CSplus	17	0	PIT
340.322862	9.197612	trialstart	9	CSplus	12	0	PIT
349.562954	11.302388	ITI	9	CSplus	12	0	PIT
360.874348	9.187474	trialstart	10	CSminus	13	0	PIT
370.105672	10.312526	ITI	10	CSminus	13	0	PIT
380.418293	9.186706	trialstart	11	CSminus	13	0	PIT
389.648812	10.813294	ITI	11	CSminus	13	0	PIT
400.462184	9.202127	trialstart	12	CSminus	21	0	PIT
409.708333	11.297873	ITI	12	CSminus	21	0	PIT
421.013147	9.192792	trialstart	13	CSplus	19	0	PIT
430.251052	10.307208	ITI	13	CSplus	19	0	PIT
440.558338	9.190704	trialstart	14	CSplus	13	0	PIT
449.794137	10.809296	ITI	14	CSplus	13	0	PIT
460.603513	9.189334	trialstart	15	CSplus	14	0	PIT
469.837019	11.310666	ITI	15	CSplus	14	0	PIT
481.154699	9.198074	trialstart	16	Baseline	12	0	PIT
490.396413	10.301926	ITI	16	Baseline	12	0	PIT
500.698416	9.197580	trialstart	17	Baseline	13	0	PIT
509.939661	10.802420	ITI	17	Baseline	13	0	PIT
520.742166	9.197271	trialstart	18	Baseline	10	0	PIT
529.982460	11.302729	ITI	18	Baseline	10	0	PIT
541.298378	9.198856	trialstart	19	CSminus	12	0	PIT
550.541801	10.301144	ITI	19	CSminus	12	0	PIT
560.843022	9.197268	trialstart	20	CSminus	17	0	PIT
570.084892	10.802732	ITI	20	CSminus	17	0	PIT
580.887706	9.197788	trialstart	21	CSminus	14	0	PIT
590.127764	11.302212	ITI	21	CSminus	14	0	PIT
601.437314	9.189719	trialstart	22	Baseline	19	0	PIT
610.670487	10.310281	ITI	22	Baseline	19	0	PIT
620.980847	9.189217	trialstart	23	Baseline	16	0	PIT
630.213633	10.810783	ITI	23	Baseline	16	0	PIT
641.024491	9.189753	trialstart	24	Baseline	16	0	PIT
650.256468	11.310247	ITI	24	Baseline	16	0	PIT
661.573798	9.197318	trialstart	25	CSplus	19	0	PIT
670.815920	10.302682	ITI	25	CSplus	19	0	PIT
681.118684	9.195528	trialstart	26	CSplus	13	0	PIT
690.358937	10.804472	ITI	26	CSplus	13	0	PIT
701.163490	9.195106	trialstart	27	CSplus	11	0	PIT
710.401896	11.304894	ITI	27	CSplus	11	0	PIT
721.721707	9.194906	trialstart	28	Baseline	12	0	PIT
730.961282	10.805094	ITI	28	Baseline	12	0	PIT
741.766457	9.192997	trialstart	29	Baseline	13	0	PIT
751.004151	11.307003	ITI	29	Baseline	13	0	PIT
762.311233	9.192687	trialstart	30	Baseline	13	0	PIT
771.546903	10.307313	ITI	30	Baseline	13	0	PIT
781.861452	9.200496	trialstart	31	CSminus	13	0	PIT
791.106658	10.799504	ITI	31	CSminus	13	0	PIT
801.906242	9.199159	trialstart	32	CSminus	15	0	PIT
811.149510	11.300841	ITI	32	CSminus	15	0	PIT
822.450431	9.198507	trialstart	33	CSminus	13	0	PIT
831.692254	10.301493	ITI	33	CSminus	13	0	PIT
842.000799	9.190827	trialstart	34	CSplus	13	0	PIT
851.235378	10.809173	ITI	34	CSplus	13	0	PIT
862.044632	9.188132	trialstart	35	CSplus	16	0	PIT
871.278260	11.311868	ITI	35	CSplus	16	0	PIT
882.590210	9.188570	trialstart	36	CSplus	16	0	PIT
891.821003	10.311430	ITI	36	CSplus	16	0	PIT
902.148744	9.188154	trialstart	37	CSplus	11	0	PIT
911.380717	11.311846	ITI	37	CSplus	11	0	PIT
922.692642	9.186127	trialstart	38	CSplus	9	0	PIT
931.923438	10.313873	ITI	38	CSplus	9	0	PIT
942.237390	9.185972	trialstart	39	CSplus	12	0	PIT
951.466517	10.814028	ITI	39	CSplus	12	0	PIT
962.287506	9.193373	trialstart	40	CSminus	14	0	PIT
971.526117	11.306627	ITI	40	CSminus	14	0	PIT
982.832824	9.192583	trialstart	41	CSminus	18	0	PIT
992.068804	10.307417	ITI	41	CSminus	18	0	PIT
1002.376303	9.193221	trialstart	42	CSminus	11	0	PIT
1011.611879	10.806779	ITI	42	CSminus	11	0	PIT
1022.425809	9.201313	trialstart	43	Baseline	21	0	PIT
1031.671432	11.298687	ITI	43	Baseline	21	0	PIT
1042.970201	9.198816	trialstart	44	Baseline	19	0	PIT
1052.214206	10.301184	ITI	44	Baseline	19	0	PIT
1062.515464	9.198104	trialstart	45	Baseline	18	0	PIT
1071.757256	10.801896	ITI	45	Baseline	18	0	PIT
