onset	duration	trial_phase	trial	condition	n_grips	rewarded_response	phase
0.011205	16.888004	trialstart	1	None	4	2	Reminder
16.896813	2.666264	ITI	1	None	4	2	Reminder
19.568248	15.121679	trialstart	2	None	9	1	Reminder
34.689898	4.908672	ITI	2	None	9	1	Reminder
39.603608	17.312096	trialstart	3	None	7	2	Reminder
56.915663	3.218270	ITI	3	None	7	2	Reminder
60.143121	14.352504	trialstart	1	None	11	1	Partial_Extinction
74.493869	5.187305	ITI	1	None	11	1	Partial_Extinction
79.685266	14.667789	trialstart	2	None	10	1	Partial_Extinction
94.353014	5.362489	ITI	2	None	10	1	Partial_Extinction
99.720892	14.742056	trialstart	3	None	6	1	Partial_Extinction
114.462905	5.788231	ITI	3	None	6	1	Partial_Extinction
120.255839	14.383562	trialstart	4	None	8	1	Partial_Extinction
134.639357	5.646727	ITI	4	None	8	1	Partial_Extinction
140.290921	14.824933	trialstart	5	None	4	1	Partial_Extinction
155.115818	4.705347	ITI	5	None	4	1	Partial_Extinction
159.826629	14.482685	trialstart	6	None	12	1	Partial_Extinction
174.309269	6.047559	ITI	6	None	12	1	Partial_Extinction
180.365541	12.024757	trialstart	1	CSminus	5	0	PIT
192.436960	7.975243	ITI	1	CSminus	5	0	PIT
200.412425	12.024321	trialstart	2	CSminus	4	0	PIT
212.479772	7.475679	ITI	2	CSminus	4	0	PIT
219.955528	12.008179	trialstart	3	CSminus	5	0	PIT
232.006467	8.491821	ITI	3	CSminus	5	0	PIT
240.502974	12.018752	trialstart	4	Baseline	6	0	PIT
252.566149	7.981248	ITI	4	Baseline	6	0	PIT
260.547480	12.019417	trialstart	5	Baseline	4	0	PIT
272.609396	7.480583	ITI	5	Baseline	4	0	PIT
280.090058	12.019867	trialstart	6	Baseline	4	0	PIT
292.152725	8.480133	ITI	6	Baseline	4	0	PIT
300.637680	12.030315	trialstart	7	CSplus	5	0	PIT
312.712557	7.969685	ITI	7	CSplus	5	0	PIT
320.682320	12.030723	trialstart	8	CSplus	5	0	PIT
332.755683	7.469277	ITI	8	CSplus	5	0	PIT
340.225056	12.031118	trialstart	9	CSplus	4	0	PIT
352.299101	8.468882	ITI	9	CSplus	4	0	PIT
360.778480	12.021766	trialstart	10	Baseline	7	0	PIT
372.842159	7.478234	ITI	10	Baseline	7	0	PIT
380.320467	12.022767	trialstart	11	Baseline	4	0	PIT
392.385480	8.477233	ITI	11	Baseline	4	0	PIT
400.862790	12.022147	trialstart	12	Baseline	4	0	PIT
412.928546	7.977853	ITI	12	Baseline	4	0	PIT
420.913582	12.032793	trialstart	13	CSplus	4	0	PIT
432.988417	7.467207	ITI	13	CSplus	4	0	PIT
440.455724	12.000455	trialstart	14	CSplus	2	0	PIT
452.498480	8.499545	ITI	14	CSplus	2	0	PIT
460.998099	12.033200	trialstart	15	CSplus	4	0	PIT
473.074909	7.966800	ITI	15	CSplus	4	0	PIT
481.048822	12.026112	trialstart	16	CSminus	3	0	PIT
493.118092	7.473888	ITI	16	CSminus	3	0	PIT
500.592060	12.027054	trialstart	17	CSminus	3	0	PIT
512.661518	8.472946	ITI	17	CSminus	3	0	PIT
521.134543	12.026604	trialstart	18	CSminus	4	0	PIT
533.204533	7.973396	ITI	18	CSminus	4	0	PIT
541.193068	12.028601	trialstart	19	CSminus	3	0	PIT
553.264451	8.471399	ITI	19	CSminus	3	0	PIT
561.735929	12.027557	trialstart	20	CSminus	1	0	PIT
573.807497	7.472443	ITI	20	CSminus	1	0	PIT
581.280021	12.028451	trialstart	21	CSminus	2	0	PIT
593.350854	7.971549	ITI	21	CSminus	2	0	PIT
601.329641	12.022122	trialstart	22	CSplus	1	0	PIT
613.394049	8.477878	ITI	22	CSplus	1	0	PIT
621.872008	12.004983	trialstart	23	CSplus	1	0	PIT
633.920488	7.495017	ITI	23	CSplus	1	0	PIT
641.415584	12.021273	trialstart	24	CSplus	2	0	PIT
653.480551	7.978727	ITI	24	CSplus	2	0	PIT
661.466620	12.031561	trialstart	25	Baseline	4	0	PIT
673.540426	8.468439	ITI	25	Baseline	4	0	PIT
682.008942	12.031627	trialstart	26	Baseline	0	0	PIT
694.083473	7.468373	ITI	26	Baseline	0	0	PIT
701.551925	12.031775	trialstart	27	Baseline	2	0	PIT
713.626801	7.968225	ITI	27	Baseline	2	0	PIT
721.611437	12.032555	trialstart	28	CSplus	1	0	PIT
733.686694	8.467445	ITI	28	CSplus	1	0	PIT
742.154216	12.031609	trialstart	29	CSplus	1	0	PIT
754.229730	7.468391	ITI	29	CSplus	1	0	PIT
761.698197	12.031083	trialstart	30	CSplus	5	0	PIT
773.773180	7.968917	ITI	30	CSplus	5	0	PIT
781.749340	12.025107	trialstart	31	Baseline	3	0	PIT
793.816362	8.474893	ITI	31	Baseline	3	0	PIT
802.291336	12.024864	trialstart	32	Baseline	3	0	PIT
814.359418	7.475136	ITI	32	Baseline	3	0	PIT
821.834632	12.024831	trialstart	33	Baseline	3	0	PIT
833.902793	7.975169	ITI	33	Baseline	3	0	PIT
841.885121	12.000248	trialstart	34	CSminus	3	0	PIT
853.929377	8.499752	ITI	34	CSminus	3	0	PIT
862.429206	12.000280	trialstart	35	CSminus	4	0	PIT
874.472409	7.499720	ITI	35	CSminus	4	0	PIT
881.972206	12.000331	trialstart	36	CSminus	3	0	PIT
894.015825	7.999669	ITI	36	CSminus	3	0	PIT
902.033583	12.031599	trialstart	37	CSminus	3	0	PIT
914.108977	8.468401	ITI	37	CSminus	3	0	PIT
922.577460	12.031693	trialstart	38	CSminus	6	0	PIT
934.652019	7.468307	ITI	38	CSminus	6	0	PIT
942.120416	12.031751	trialstart	39	CSminus	6	0	PIT
954.195433	7.968249	ITI	39	CSminus	6	0	PIT
962.170984	12.025401	trialstart	40	CSplus	3	0	PIT
974.238698	8.474599	ITI	40	CSplus	3	0	PIT
982.713373	12.025549	trialstart	41	CSplus	3	0	PIT
994.781701	7.474451	ITI	41	CSplus	3	0	PIT
1002.256237	12.025786	trialstart	42	CSplus	4	0	PIT
1014.325101	7.974214	ITI	42	CSplus	4	0	PIT
1022.306627	12.001553	trialstart	43	Baseline	2	0	PIT
1034.351753	8.498447	ITI	43	Baseline	2	0	PIT
1042.850276	12.018979	trialstart	44	Baseline	0	0	PIT
1054.911421	7.481021	ITI	44	Baseline	0	0	PIT
1062.392520	12.019751	trialstart	45	Baseline	0	0	PIT
1074.454761	7.980249	ITI	45	Baseline	0	0	PIT
