onset	duration	trial_phase	trial	condition	n_grips	rewarded_response	phase
0.000655	16.849186	trialstart	1	None	12	2	Reminder
16.849502	3.182093	ITI	1	None	12	2	Reminder
20.035369	17.023567	trialstart	2	None	17	2	Reminder
37.058897	2.506873	ITI	2	None	17	2	Reminder
39.569907	17.098709	trialstart	3	None	15	2	Reminder
56.668586	3.431736	ITI	3	None	15	2	Reminder
60.105232	14.340363	trialstart	1	None	8	1	Partial_Extinction
74.445573	5.189991	ITI	1	None	8	1	Partial_Extinction
79.638698	14.349901	trialstart	2	None	12	1	Partial_Extinction
93.988566	5.680391	ITI	2	None	12	1	Partial_Extinction
99.674149	14.340650	trialstart	3	None	14	1	Partial_Extinction
114.014745	5.689667	ITI	3	None	14	1	Partial_Extinction
119.709160	14.565131	trialstart	4	None	13	1	Partial_Extinction
134.274237	5.965194	ITI	4	None	13	1	Partial_Extinction
140.244147	14.572714	trialstart	5	None	16	1	Partial_Extinction
154.816808	5.957595	ITI	5	None	16	1	Partial_Extinction
160.780147	14.496132	trialstart	6	None	16	1	Partial_Extinction
175.276238	5.034154	ITI	6	None	16	1	Partial_Extinction
180.315859	11.994575	trialstart	1	Baseline	14	0	PIT
192.353427	8.005425	ITI	1	Baseline	14	0	PIT
200.358929	11.994748	trialstart	2	Baseline	17	0	PIT
212.396319	8.505252	ITI	2	Baseline	17	0	PIT
220.901649	11.993719	trialstart	3	Baseline	0	0	PIT
232.938930	7.506281	ITI	3	Baseline	0	0	PIT
240.450312	11.989075	trialstart	4	CSplus	20	0	PIT
252.482000	8.010925	ITI	4	CSplus	20	0	PIT
260.493012	11.989344	trialstart	5	CSplus	22	0	PIT
272.524789	8.510656	ITI	5	CSplus	22	0	PIT
281.035522	11.988563	trialstart	6	CSplus	22	0	PIT
293.067447	7.511437	ITI	6	CSplus	22	0	PIT
300.583570	12.000773	trialstart	7	CSminus	0	0	PIT
312.627164	7.999227	ITI	7	CSminus	0	0	PIT
320.626470	12.000912	trialstart	8	CSminus	22	0	PIT
332.670020	8.499088	ITI	8	CSminus	22	0	PIT
341.169183	11.999914	trialstart	9	CSminus	0	0	PIT
353.212653	7.500086	ITI	9	CSminus	0	0	PIT
360.721499	11.992195	trialstart	10	CSminus	0	0	PIT
372.755649	8.007805	ITI	10	CSminus	0	0	PIT
380.763531	11.992343	trialstart	11	CSminus	2	0	PIT
392.798508	7.507657	ITI	11	CSminus	2	0	PIT
400.306244	11.992594	trialstart	12	CSminus	14	0	PIT
412.341515	8.507406	ITI	12	CSminus	14	0	PIT
420.856473	12.001445	trialstart	13	CSplus	19	0	PIT
432.900827	7.998555	ITI	13	CSplus	19	0	PIT
440.899461	12.000642	trialstart	14	CSplus	0	0	PIT
452.943656	7.499358	ITI	14	CSplus	0	0	PIT
460.443093	12.000029	trialstart	15	CSplus	19	0	PIT
472.486685	8.499971	ITI	15	CSplus	19	0	PIT
480.994661	11.991448	trialstart	16	Baseline	1	0	PIT
493.029386	8.008552	ITI	16	Baseline	1	0	PIT
501.038030	11.991075	trialstart	17	Baseline	8	0	PIT
513.072185	7.508925	ITI	17	Baseline	8	0	PIT
520.581190	11.990981	trialstart	18	Baseline	4	0	PIT
532.615219	8.509019	ITI	18	Baseline	4	0	PIT
541.139482	11.992402	trialstart	19	Baseline	0	0	PIT
553.174538	8.507598	ITI	19	Baseline	0	0	PIT
561.682215	11.992218	trialstart	20	Baseline	20	0	PIT
573.717157	7.507782	ITI	20	Baseline	20	0	PIT
581.225017	11.992149	trialstart	21	Baseline	0	0	PIT
593.260229	8.007851	ITI	21	Baseline	0	0	PIT
601.275376	12.000948	trialstart	22	CSplus	13	0	PIT
613.319707	8.499052	ITI	22	CSplus	13	0	PIT
621.818839	12.001282	trialstart	23	CSplus	13	0	PIT
633.862393	7.498718	ITI	23	CSplus	13	0	PIT
641.361188	11.985374	trialstart	24	CSplus	7	0	PIT
653.388777	8.014626	ITI	24	CSplus	7	0	PIT
661.410812	11.994193	trialstart	25	CSminus	0	0	PIT
673.448262	8.505807	ITI	25	CSminus	0	0	PIT
681.954158	11.994381	trialstart	26	CSminus	8	0	PIT
693.990917	7.505619	ITI	26	CSminus	8	0	PIT
701.496643	11.993260	trialstart	27	CSminus	0	0	PIT
713.533898	8.006740	ITI	27	CSminus	0	0	PIT
721.556397	11.993491	trialstart	28	CSminus	0	0	PIT
733.593419	8.506509	ITI	28	CSminus	0	0	PIT
742.100007	11.993635	trialstart	29	CSminus	0	0	PIT
754.136051	7.506365	ITI	29	CSminus	0	0	PIT
761.642495	11.993833	trialstart	30	CSminus	0	0	PIT
773.679098	8.006167	ITI	30	CSminus	0	0	PIT
781.692604	11.986228	trialstart	31	Baseline	0	0	PIT
793.721957	8.513772	ITI	31	Baseline	0	0	PIT
802.235809	11.985563	trialstart	32	Baseline	0	0	PIT
814.264573	7.514437	ITI	32	Baseline	0	0	PIT
821.779092	11.985279	trialstart	33	Baseline	0	0	PIT
833.807561	8.014721	ITI	33	Baseline	0	0	PIT
841.829440	11.995253	trialstart	34	CSplus	0	0	PIT
853.867045	8.504747	ITI	34	CSplus	0	0	PIT
862.371877	11.994352	trialstart	35	CSplus	10	0	PIT
874.409759	7.505648	ITI	35	CSplus	10	0	PIT
881.915485	11.993554	trialstart	36	CSplus	0	0	PIT
893.952814	8.006446	ITI	36	CSplus	0	0	PIT
901.975957	11.993432	trialstart	37	Baseline	8	0	PIT
914.012289	7.506568	ITI	37	Baseline	8	0	PIT
921.518937	11.993096	trialstart	38	Baseline	0	0	PIT
933.555312	8.506904	ITI	38	Baseline	0	0	PIT
942.062295	12.009125	trialstart	39	Baseline	0	0	PIT
954.114625	7.990875	ITI	39	Baseline	0	0	PIT
962.113035	12.002347	trialstart	40	CSplus	0	0	PIT
974.157452	7.497653	ITI	40	CSplus	0	0	PIT
981.655182	11.986179	trialstart	41	CSplus	6	0	PIT
993.683804	8.513821	ITI	41	CSplus	6	0	PIT
1002.197706	11.985162	trialstart	42	CSplus	0	0	PIT
1014.226456	8.014838	ITI	42	CSplus	0	0	PIT
1022.248717	11.994103	trialstart	43	CSminus	3	0	PIT
1034.285931	7.505897	ITI	43	CSminus	3	0	PIT
1041.791909	11.994728	trialstart	44	CSminus	0	0	PIT
1053.829027	8.505272	ITI	44	CSminus	0	0	PIT
1062.334378	11.993957	trialstart	45	CSminus	0	0	PIT
1074.371633	8.006043	ITI	45	CSminus	0	0	PIT
